# Step     T (K)     E_KS (eV)    E_tot (eV)   Vol (A^3)    P (kBar)
     1   1256.54   -3326.86761   -3324.10658     900.136     102.439
     2   1177.70   -3326.86050   -3324.27270     900.136     102.410
     3   1107.70   -3326.86017   -3324.42618     900.136     102.103
     4   1043.69   -3326.86134   -3324.56801     900.136     101.771
     5    981.46   -3326.85534   -3324.69875     900.136     101.585
     6    915.80   -3326.83066   -3324.81835     900.136     101.519
     7    839.84   -3326.77120   -3324.92579     900.136     101.619
     8    746.53   -3326.65811   -3325.01773     900.136     101.884
     9    632.87   -3326.48004   -3325.08941     900.136     102.352
    10    506.10   -3326.24535   -3325.13329     900.136     102.875
    11    387.74   -3325.98818   -3325.13619     900.136     103.304
    12    310.86   -3325.79692   -3325.11385     900.136     102.943
    13    295.47   -3325.75956   -3325.11030     900.136     101.849
    14    330.13   -3325.86046   -3325.13505     900.136     100.347
    15    384.56   -3326.01077   -3325.16576     900.136      99.094
    16    437.42   -3326.15371   -3325.19255     900.136      98.115
    17    484.42   -3326.28587   -3325.22144     900.136      97.573
    18    530.12   -3326.41681   -3325.25195     900.136      97.223
    19    576.44   -3326.55529   -3325.28866     900.136      97.412
    20    599.04   -3326.66180   -3325.34551     900.136      98.175
    21    574.66   -3326.64418   -3325.38146     900.136      98.455
    22    576.67   -3326.70543   -3325.43829     900.136      97.340
    23    583.73   -3326.78075   -3325.49811     900.136      95.582
    24    545.87   -3326.73188   -3325.53241     900.136      94.007
    25    524.55   -3326.72183   -3325.56921     900.136      92.942
    26    542.09   -3326.80691   -3325.61575     900.136      92.370
    27    545.26   -3326.86303   -3325.66492     900.136      92.715
    28    516.15   -3326.81635   -3325.68220     900.136      92.675
    29    525.63   -3326.89041   -3325.73543     900.136      91.382
    30    522.92   -3326.92064   -3325.77161     900.136      89.545
    31    489.72   -3326.87249   -3325.79642     900.136      88.043
    32    476.73   -3326.87487   -3325.82733     900.136      87.089
    33    490.34   -3326.94364   -3325.86619     900.136      86.974
    34    494.19   -3326.99250   -3325.90659     900.136      87.243
    35    467.71   -3326.95690   -3325.92918     900.136      87.590
    36    454.59   -3326.95870   -3325.95980     900.136      86.876
    37    449.48   -3326.98243   -3325.99478     900.136      85.494
    38    418.93   -3326.93445   -3326.01391     900.136      84.296
    39    389.40   -3326.88620   -3326.03055     900.136      83.543
    40    383.66   -3326.89175   -3326.04871     900.136      83.034
    41    389.98   -3326.92848   -3326.07156     900.136      82.887
    42    374.91   -3326.91235   -3326.08855     900.136      83.318
    43    349.61   -3326.85732   -3326.08911     900.136      83.316
    44    359.84   -3326.90306   -3326.11238     900.136      82.075
    45    365.38   -3326.93136   -3326.12849     900.136      80.555
    46    349.57   -3326.90593   -3326.13780     900.136      79.453
    47    346.08   -3326.90985   -3326.14938     900.136      78.702
    48    364.78   -3326.96846   -3326.16691     900.136      78.332
    49    378.67   -3327.02041   -3326.18835     900.136      78.475
    50    367.04   -3327.00237   -3326.19586     900.136      78.644
    51    373.51   -3327.03499   -3326.21425     900.136      77.991
    52    393.24   -3327.11021   -3326.24613     900.136      76.682
    53    383.32   -3327.10567   -3326.26339     900.136      75.271
    54    369.97   -3327.09162   -3326.27867     900.136      74.236
    55    378.93   -3327.13034   -3326.29771     900.136      73.906
    56    393.10   -3327.18691   -3326.32314     900.136      74.280
    57    379.44   -3327.17000   -3326.33624     900.136      74.775
    58    369.71   -3327.15813   -3326.34575     900.136      74.679
    59    383.01   -3327.21582   -3326.37422     900.136      73.535
    60    371.12   -3327.19949   -3326.38402     900.136      72.484
    61    354.32   -3327.16967   -3326.39109     900.136      71.727
    62    364.05   -3327.20539   -3326.40545     900.136      71.547
    63    378.83   -3327.25929   -3326.42687     900.136      72.111
    64    364.82   -3327.23322   -3326.43159     900.136      72.864
    65    365.35   -3327.24498   -3326.44218     900.136      72.587
    66    383.30   -3327.30844   -3326.46620     900.136      71.570
    67    372.24   -3327.29074   -3326.47281     900.136      70.653
    68    364.47   -3327.28287   -3326.48199     900.136      70.265
    69    380.12   -3327.33614   -3326.50090     900.136      70.365
    70    384.42   -3327.36616   -3326.52147     900.136      71.082
    71    365.40   -3327.32483   -3326.52193     900.136      71.599
    72    374.35   -3327.36629   -3326.54373     900.136      71.152
    73    380.62   -3327.39668   -3326.56033     900.136      69.877
    74    363.62   -3327.36485   -3326.56585     900.136      69.096
    75    361.47   -3327.37114   -3326.57686     900.136      68.789
    76    375.96   -3327.42186   -3326.59575     900.136      68.861
    77    371.89   -3327.42697   -3326.60980     900.136      69.626
    78    359.77   -3327.40216   -3326.61162     900.136      69.900
    79    374.61   -3327.45842   -3326.63527     900.136      69.042
    80    376.35   -3327.47487   -3326.64791     900.136      67.926
    81    362.86   -3327.45254   -3326.65522     900.136      67.032
    82    364.39   -3327.46762   -3326.66694     900.136      66.724
    83    378.79   -3327.51673   -3326.68440     900.136      66.779
    84    379.84   -3327.53471   -3326.70008     900.136      67.243
    85    367.26   -3327.51319   -3326.70619     900.136      67.572
    86    370.82   -3327.53760   -3326.72279     900.136      67.067
    87    375.86   -3327.56455   -3326.73867     900.136      66.319
    88    365.93   -3327.55225   -3326.74818     900.136      65.611
    89    357.34   -3327.54283   -3326.75763     900.136      65.572
    90    361.79   -3327.56383   -3326.76886     900.136      65.351
    91    376.84   -3327.61118   -3326.78314     900.136      65.460
    92    394.05   -3327.66562   -3326.79975     900.136      65.743
    93    410.45   -3327.71855   -3326.81666     900.136      66.029
    94    434.32   -3327.79179   -3326.83744     900.136      66.214
    95    471.32   -3327.90293   -3326.86729     900.136      65.921
    96    512.51   -3328.02941   -3326.90324     900.136      65.189
    97    548.59   -3328.15040   -3326.94497     900.136      64.831
    98    578.66   -3328.26436   -3326.99284     900.136      64.487
    99    604.50   -3328.37508   -3327.04679     900.136      64.377
   100    625.50   -3328.48120   -3327.10676     900.136      64.642
