# Step     T (K)     E_KS (eV)    E_tot (eV)   Vol (A^3)    P (kBar)
     1   1256.54   -3326.86620   -3324.10517     900.136     102.441
     2   1180.48   -3326.86599   -3324.27207     900.136     102.342
     3   1114.60   -3326.87531   -3324.42616     900.136     101.978
     4   1056.79   -3326.89116   -3324.56902     900.136     101.552
     5   1005.31   -3326.91093   -3324.70192     900.136     101.203
     6    958.71   -3326.93252   -3324.82591     900.136     100.885
     7    915.90   -3326.95435   -3324.94182     900.136     100.542
     8    875.91   -3326.97493   -3325.05026     900.136     100.113
     9    837.79   -3326.99268   -3325.15176     900.136      99.729
    10    800.55   -3327.00576   -3325.24669     900.136      99.293
    11    762.82   -3327.01079   -3325.33462     900.136      98.955
    12    722.42   -3327.00304   -3325.41565     900.136      98.760
    13    676.70   -3326.97576   -3325.48882     900.136      98.310
    14    622.09   -3326.92029   -3325.55334     900.136      98.262
    15    556.40   -3326.82862   -3325.60601     900.136      98.278
    16    479.60   -3326.69870   -3325.64487     900.136      98.426
    17    397.54   -3326.54259   -3325.66906     900.136      98.631
    18    324.11   -3326.38895   -3325.67678     900.136      98.743
    19    275.74   -3326.27945   -3325.67357     900.136      98.578
    20    263.98   -3326.24802   -3325.66796     900.136      98.221
    21    287.21   -3326.29680   -3325.66571     900.136      97.513
    22    331.89   -3326.39925   -3325.66998     900.136      96.670
    23    383.00   -3326.52310   -3325.68152     900.136      95.893
    24    430.47   -3326.64792   -3325.70202     900.136      95.054
    25    469.92   -3326.76369   -3325.73111     900.136      94.450
    26    498.18   -3326.85901   -3325.76434     900.136      93.984
    27    511.49   -3326.92447   -3325.80054     900.136      93.542
    28    510.68   -3326.96245   -3325.84031     900.136      92.936
    29    499.70   -3326.97665   -3325.87864     900.136      92.416
    30    483.01   -3326.97400   -3325.91266     900.136      91.876
    31    465.29   -3326.96629   -3325.94388     900.136      91.523
    32    446.86   -3326.95434   -3325.97244     900.136      91.322
    33    424.69   -3326.92970   -3325.99652     900.136      91.001
    34    398.95   -3326.89309   -3326.01647     900.136      90.762
    35    371.72   -3326.84911   -3326.03232     900.136      90.506
    36    344.14   -3326.79868   -3326.04249     900.136      89.984
    37    319.99   -3326.75061   -3326.04749     900.136      89.773
    38    305.08   -3326.71954   -3326.04918     900.136      89.626
    39    302.81   -3326.71501   -3326.04963     900.136      89.496
    40    312.72   -3326.73789   -3326.05075     900.136      89.393
    41    333.42   -3326.78765   -3326.05500     900.136      89.043
    42    362.28   -3326.86050   -3326.06445     900.136      88.435
    43    391.75   -3326.94033   -3326.07952     900.136      87.669
    44    415.47   -3327.01139   -3326.09847     900.136      86.973
    45    432.39   -3327.07093   -3326.12084     900.136      86.343
    46    441.76   -3327.11723   -3326.14654     900.136      85.849
    47    442.76   -3327.14553   -3326.17264     900.136      85.670
    48    438.82   -3327.16169   -3326.19744     900.136      85.244
    49    432.57   -3327.17251   -3326.22201     900.136      84.571
    50    423.41   -3327.17528   -3326.24492     900.136      83.823
    51    414.33   -3327.17645   -3326.26602     900.136      83.313
    52    407.84   -3327.18275   -3326.28660     900.136      82.990
    53    401.55   -3327.18787   -3326.30554     900.136      82.696
    54    395.07   -3327.19073   -3326.32262     900.136      82.360
    55    390.09   -3327.19720   -3326.34004     900.136      81.834
    56    384.52   -3327.20097   -3326.35604     900.136      81.088
    57    378.66   -3327.20248   -3326.37043     900.136      80.520
    58    374.94   -3327.20886   -3326.38500     900.136      80.249
    59    371.11   -3327.21397   -3326.39852     900.136      79.966
    60    365.99   -3327.21443   -3326.41023     900.136      79.704
    61    362.10   -3327.21803   -3326.42236     900.136      79.168
    62    357.95   -3327.22001   -3326.43347     900.136      78.549
    63    353.24   -3327.21913   -3326.44294     900.136      77.883
    64    350.70   -3327.22318   -3326.45258     900.136      77.498
    65    348.72   -3327.22819   -3326.46193     900.136      77.146
    66    345.62   -3327.22926   -3326.46983     900.136      76.840
    67    343.68   -3327.23330   -3326.47813     900.136      76.342
    68    341.83   -3327.23741   -3326.48629     900.136      75.745
    69    339.09   -3327.23829   -3326.49319     900.136      75.189
    70    338.13   -3327.24350   -3326.50052     900.136      74.773
    71    337.84   -3327.25019   -3326.50784     900.136      74.492
    72    336.11   -3327.25269   -3326.51414     900.136      74.197
    73    335.02   -3327.25700   -3326.52084     900.136      73.829
    74    334.00   -3327.26141   -3326.52751     900.136      73.405
    75    331.44   -3327.26137   -3326.53310     900.136      72.796
    76    329.71   -3327.26311   -3326.53863     900.136      72.269
    77    328.28   -3327.26584   -3326.54449     900.136      72.046
    78    324.81   -3327.26260   -3326.54889     900.136      71.791
    79    321.17   -3327.25881   -3326.55308     900.136      71.456
    80    317.34   -3327.25444   -3326.55713     900.136      71.102
    81    311.73   -3327.24417   -3326.55919     900.136      70.789
    82    306.85   -3327.23501   -3326.56075     900.136      70.670
    83    302.86   -3327.22780   -3326.56231     900.136      70.688
    84    297.42   -3327.21526   -3326.56171     900.136      70.822
    85    292.41   -3327.20316   -3326.56064     900.136      70.892
    86    288.18   -3327.19276   -3326.55954     900.136      70.619
    87    283.34   -3327.17899   -3326.55640     900.136      70.321
    88    281.00   -3327.17032   -3326.55287     900.136      70.055
    89    281.80   -3327.16922   -3326.55002     900.136      69.960
    90    283.31   -3327.16894   -3326.54642     900.136      69.851
    91    286.82   -3327.17377   -3326.54353     900.136      69.539
    92    291.69   -3327.18290   -3326.54195     900.136      69.191
    93    295.31   -3327.18957   -3326.54067     900.136      69.012
    94    299.62   -3327.19922   -3326.54085     900.136      68.956
    95    303.51   -3327.20896   -3326.54206     900.136      69.034
    96    302.19   -3327.20638   -3326.54237     900.136      69.210
    97    295.69   -3327.19226   -3326.54254     900.136      69.336
    98    283.83   -3327.16480   -3326.54112     900.136      69.366
    99    266.26   -3327.12055   -3326.53549     900.136      69.548
   100    248.51   -3327.07423   -3326.52816     900.136      69.771
