# Step     T (K)     E_KS (eV)    E_tot (eV)   Vol (A^3)    P (kBar)
     1   1256.54   -3326.86684   -3324.10581     900.136     102.435
     2   1180.05   -3326.86564   -3324.27268     900.136     102.337
     3   1113.89   -3326.87429   -3324.42670     900.136     101.974
     4   1056.00   -3326.88981   -3324.56942     900.136     101.547
     5   1004.50   -3326.90940   -3324.70218     900.136     101.195
     6    957.87   -3326.93082   -3324.82606     900.136     100.878
     7    915.03   -3326.95239   -3324.94177     900.136     100.528
     8    875.00   -3326.97273   -3325.05007     900.136     100.087
     9    836.81   -3326.99017   -3325.15142     900.136      99.688
    10    799.47   -3327.00279   -3325.24609     900.136      99.240
    11    761.59   -3327.00719   -3325.33373     900.136      98.880
    12    720.85   -3326.99823   -3325.41429     900.136      98.650
    13    674.36   -3326.96939   -3325.48760     900.136      98.212
    14    619.26   -3326.91285   -3325.55213     900.136      98.076
    15    553.87   -3326.82150   -3325.60447     900.136      98.117
    16    477.59   -3326.69223   -3325.64280     900.136      98.201
    17    394.20   -3326.53383   -3325.66763     900.136      98.384
    18    314.85   -3326.36671   -3325.67488     900.136      98.513
    19    253.71   -3326.22752   -3325.67004     900.136      98.521
    20    224.66   -3326.15068   -3325.65702     900.136      98.377
    21    236.11   -3326.16322   -3325.64441     900.136      97.940
    22    285.37   -3326.26632   -3325.63927     900.136      97.304
    23    358.22   -3326.43249   -3325.64535     900.136      96.506
    24    435.16   -3326.62101   -3325.66481     900.136      95.722
    25    499.94   -3326.79462   -3325.69609     900.136      95.101
    26    544.10   -3326.93275   -3325.73717     900.136      94.309
    27    567.05   -3327.02964   -3325.78365     900.136      93.571
    28    572.35   -3327.09040   -3325.83275     900.136      93.012
    29    565.12   -3327.12372   -3325.88196     900.136      92.563
    30    549.50   -3327.13612   -3325.92868     900.136      92.198
    31    528.02   -3327.13244   -3325.97220     900.136      91.864
    32    502.20   -3327.11440   -3326.01091     900.136      91.415
    33    473.26   -3327.08388   -3326.04397     900.136      91.198
    34    443.00   -3327.04626   -3326.07283     900.136      91.139
    35    414.79   -3327.00721   -3326.09577     900.136      90.875
    36    393.01   -3326.97753   -3326.11397     900.136      90.633
    37    381.07   -3326.96703   -3326.12969     900.136      90.313
    38    381.02   -3326.98204   -3326.14482     900.136      89.900
    39    391.54   -3327.02152   -3326.16116     900.136      89.443
    40    407.96   -3327.07657   -3326.18015     900.136      88.760
    41    425.16   -3327.13619   -3326.20197     900.136      88.160
    42    439.52   -3327.19208   -3326.22631     900.136      87.479
    43    448.91   -3327.23954   -3326.25313     900.136      86.936
    44    452.83   -3327.27584   -3326.28082     900.136      86.395
    45    452.01   -3327.30204   -3326.30883     900.136      85.810
    46    447.70   -3327.32013   -3326.33638     900.136      85.196
    47    441.04   -3327.33152   -3326.36240     900.136      84.656
    48    433.04   -3327.33867   -3326.38713     900.136      84.016
    49    424.71   -3327.34354   -3326.41031     900.136      83.443
    50    416.49   -3327.34733   -3326.43217     900.136      82.966
    51    408.42   -3327.34990   -3326.45248     900.136      82.452
    52    400.56   -3327.35156   -3326.47139     900.136      82.002
    53    393.03   -3327.35283   -3326.48920     900.136      81.478
    54    385.87   -3327.35334   -3326.50546     900.136      80.908
    55    379.37   -3327.35404   -3326.52043     900.136      80.383
    56    373.75   -3327.35566   -3326.53441     900.136      79.924
    57    368.77   -3327.35763   -3326.54731     900.136      79.462
    58    364.44   -3327.36038   -3326.55959     900.136      79.040
    59    360.86   -3327.36409   -3326.57115     900.136      78.503
    60    357.94   -3327.36849   -3326.58199     900.136      78.001
    61    355.84   -3327.37413   -3326.59224     900.136      77.499
    62    354.90   -3327.38215   -3326.60231     900.136      77.072
    63    354.58   -3327.39147   -3326.61234     900.136      76.608
    64    354.21   -3327.40047   -3326.62215     900.136      76.314
    65    353.66   -3327.40928   -3326.63217     900.136      75.899
    66    352.66   -3327.41695   -3326.64204     900.136      75.445
    67    351.28   -3327.42357   -3326.65168     900.136      74.914
    68    350.05   -3327.43011   -3326.66092     900.136      74.394
    69    348.80   -3327.43637   -3326.66994     900.136      73.941
    70    346.98   -3327.44101   -3326.67858     900.136      73.525
    71    344.41   -3327.44370   -3326.68691     900.136      73.053
    72    341.06   -3327.44411   -3326.69468     900.136      72.603
    73    337.14   -3327.44265   -3326.70184     900.136      72.145
    74    333.47   -3327.44110   -3326.70835     900.136      71.855
    75    330.24   -3327.43977   -3326.71413     900.136      71.477
    76    326.75   -3327.43728   -3326.71930     900.136      71.038
    77    322.79   -3327.43290   -3326.72362     900.136      70.635
    78    318.52   -3327.42732   -3326.72743     900.136      70.276
    79    313.94   -3327.42025   -3326.73042     900.136      69.925
    80    309.53   -3327.41269   -3326.73256     900.136      69.514
    81    305.63   -3327.40543   -3326.73386     900.136      69.309
    82    301.76   -3327.39752   -3326.73446     900.136      69.089
    83    297.55   -3327.38780   -3326.73398     900.136      68.720
    84    293.15   -3327.37730   -3326.73314     900.136      68.450
    85    288.43   -3327.36523   -3326.73144     900.136      68.096
    86    283.46   -3327.35179   -3326.72894     900.136      67.709
    87    278.65   -3327.33821   -3326.72592     900.136      67.484
    88    273.91   -3327.32385   -3326.72198     900.136      67.361
    89    268.92   -3327.30775   -3326.71683     900.136      67.186
    90    264.03   -3327.29080   -3326.71064     900.136      67.036
    91    259.62   -3327.27397   -3326.70349     900.136      66.709
    92    256.50   -3327.25915   -3326.69553     900.136      66.518
    93    255.95   -3327.24949   -3326.68709     900.136      66.229
    94    258.43   -3327.24692   -3326.67906     900.136      66.096
    95    263.89   -3327.25220   -3326.67234     900.136      65.943
    96    272.70   -3327.26561   -3326.66640     900.136      65.764
    97    284.39   -3327.28740   -3326.66250     900.136      65.600
    98    297.78   -3327.31540   -3326.66108     900.136      65.220
    99    311.87   -3327.34754   -3326.66226     900.136      64.909
   100    324.98   -3327.38030   -3326.66621     900.136      64.864
