# Step     T (K)     E_KS (eV)    E_tot (eV)   Vol (A^3)    P (kBar)
     1   1256.54   -3326.54107   -3323.78004     900.136     101.006
     2   1270.42   -3326.75972   -3323.96818     900.136     100.867
     3   1253.17   -3326.94642   -3324.19278     900.136     102.195
     4   1084.55   -3326.63350   -3324.25038     900.136     103.979
     5   1101.46   -3326.92241   -3324.50212     900.136     102.031
     6   1057.21   -3326.93762   -3324.61457     900.136     100.052
     7    939.16   -3326.78264   -3324.71900     900.136      99.096
     8    907.42   -3326.83232   -3324.83841     900.136      98.944
     9    918.55   -3327.00051   -3324.98214     900.136      99.917
    10    800.90   -3326.84142   -3325.08158     900.136     101.897
    11    685.71   -3326.63386   -3325.12713     900.136     102.424
    12    638.13   -3326.64011   -3325.23793     900.136     101.432
    13    455.13   -3326.22210   -3325.22202     900.136     101.277
    14    320.33   -3325.92160   -3325.21773     900.136     100.890
    15    296.36   -3325.88697   -3325.23577     900.136     100.743
    16    294.97   -3325.90625   -3325.25809     900.136     101.502
    17    288.42   -3325.85348   -3325.21973     900.136     101.878
    18    401.51   -3326.16280   -3325.28055     900.136     100.020
    19    498.14   -3326.40377   -3325.30920     900.136      97.547
    20    517.51   -3326.47834   -3325.34120     900.136      95.634
    21    518.91   -3326.51969   -3325.37947     900.136      94.011
    22    516.05   -3326.55262   -3325.41869     900.136      92.478
    23    508.88   -3326.57542   -3325.45725     900.136      91.148
    24    503.50   -3326.59977   -3325.49342     900.136      90.067
    25    509.03   -3326.64894   -3325.53044     900.136      89.119
    26    533.33   -3326.74090   -3325.56900     900.136      88.275
    27    572.85   -3326.87624   -3325.61749     900.136      87.946
    28    590.53   -3326.98534   -3325.68774     900.136      88.382
    29    515.24   -3326.88086   -3325.74870     900.136      89.879
    30    391.51   -3326.58091   -3325.72064     900.136      91.370
    31    512.27   -3326.87453   -3325.74891     900.136      90.536
    32    845.01   -3327.73766   -3325.88089     900.136      88.068
    33   1052.33   -3328.30925   -3325.99692     900.136      86.730
    34   1054.69   -3328.46029   -3326.14277     900.136      87.033
    35    838.28   -3328.11307   -3326.27108     900.136      88.721
    36    548.56   -3327.44396   -3326.23860     900.136      90.144
    37    650.58   -3327.76698   -3326.33744     900.136      87.942
    38    953.28   -3328.59545   -3326.50077     900.136      84.408
    39   1031.44   -3328.86657   -3326.60016     900.136      82.652
    40    953.40   -3328.81313   -3326.71821     900.136      82.051
    41    809.42   -3328.61669   -3326.83811     900.136      82.746
    42    582.16   -3328.18322   -3326.90402     900.136      84.149
    43    390.47   -3327.74451   -3326.88652     900.136      85.055
    44    469.36   -3327.96795   -3326.93661     900.136      83.210
    45    692.03   -3328.54381   -3327.02318     900.136      80.792
    46    829.72   -3328.92058   -3327.09742     900.136      79.092
    47    892.63   -3329.15767   -3327.19627     900.136      78.326
    48    912.48   -3329.32667   -3327.32164     900.136      78.435
    49    819.77   -3329.24439   -3327.44309     900.136      80.017
    50    615.09   -3328.82025   -3327.46869     900.136      81.960
    51    585.61   -3328.79118   -3327.50440     900.136      81.676
    52    775.30   -3329.34803   -3327.64443     900.136      79.657
    53    835.30   -3329.58193   -3327.74649     900.136      78.537
    54    660.47   -3329.26244   -3327.81116     900.136      78.818
    55    406.93   -3328.70580   -3327.81164     900.136      79.247
    56    313.47   -3328.51038   -3327.82159     900.136      78.074
    57    384.11   -3328.70606   -3327.86204     900.136      75.987
    58    441.97   -3328.85158   -3327.88042     900.136      74.120
    59    455.92   -3328.90029   -3327.89848     900.136      72.912
    60    476.15   -3328.97540   -3327.92915     900.136      72.597
    61    493.68   -3329.06289   -3327.97811     900.136      73.429
    62    438.18   -3328.97691   -3328.01408     900.136      75.327
    63    351.09   -3328.75670   -3327.98523     900.136      77.245
    64    455.36   -3329.01848   -3328.01791     900.136      77.004
    65    655.69   -3329.56431   -3328.12353     900.136      75.545
    66    639.91   -3329.58833   -3328.18224     900.136      75.187
    67    445.13   -3329.16479   -3328.18670     900.136      75.228
    68    318.93   -3328.89052   -3328.18973     900.136      74.100
    69    329.90   -3328.94274   -3328.21785     900.136      72.026
    70    357.89   -3329.01306   -3328.22666     900.136      70.172
    71    363.75   -3329.02773   -3328.22845     900.136      68.982
    72    387.82   -3329.09070   -3328.23853     900.136      68.651
    73    441.61   -3329.23946   -3328.26909     900.136      69.033
    74    469.36   -3329.34523   -3328.31388     900.136      70.405
    75    399.53   -3329.21140   -3328.33350     900.136      72.655
    76    317.54   -3329.00278   -3328.30505     900.136      74.419
    77    387.54   -3329.19928   -3328.34773     900.136      74.491
    78    458.49   -3329.40833   -3328.40087     900.136      74.077
    79    371.80   -3329.21074   -3328.39376     900.136      74.043
    80    275.98   -3328.98643   -3328.38001     900.136      73.093
    81    272.29   -3328.99094   -3328.39262     900.136      71.421
    82    279.80   -3329.00658   -3328.39177     900.136      69.987
    83    261.09   -3328.95009   -3328.37640     900.136      69.244
    84    260.42   -3328.93507   -3328.36285     900.136      69.111
    85    311.35   -3329.04850   -3328.36436     900.136      69.604
    86    391.18   -3329.24458   -3328.38503     900.136      70.941
    87    427.03   -3329.35798   -3328.41966     900.136      73.218
    88    389.87   -3329.27611   -3328.41945     900.136      75.994
    89    399.31   -3329.30633   -3328.42892     900.136      77.595
    90    471.95   -3329.52928   -3328.49226     900.136      77.808
    91    459.23   -3329.51760   -3328.50852     900.136      77.451
    92    414.55   -3329.43146   -3328.52056     900.136      76.154
    93    403.33   -3329.44006   -3328.55380     900.136      74.232
    94    367.71   -3329.37315   -3328.56517     900.136      72.436
    95    311.48   -3329.24670   -3328.56227     900.136      71.184
    96    290.09   -3329.19484   -3328.55742     900.136      70.623
    97    330.75   -3329.28915   -3328.56237     900.136      70.745
    98    405.88   -3329.47977   -3328.58792     900.136      71.718
    99    436.89   -3329.58516   -3328.62516     900.136      73.736
   100    368.84   -3329.44356   -3328.63310     900.136      76.159
