# Step     T (K)     E_KS (eV)    E_tot (eV)   Vol (A^3)    P (kBar)
     1   1256.54   -3325.24237   -3322.48134     900.136      99.076
     2   1314.65   -3325.54886   -3322.66013     900.136      99.120
     3   1590.60   -3326.41683   -3322.92176     900.136     100.120
     4   1447.61   -3326.67438   -3323.49351     900.136     104.672
     5   1163.03   -3324.90726   -3322.35169     900.136     108.624
     6   2133.27   -3326.48001   -3321.79250     900.136      99.100
     7   1416.07   -3325.05470   -3321.94313     900.136     100.086
     8    990.60   -3324.29505   -3322.11837     900.136      97.850
     9    837.14   -3324.07574   -3322.23627     900.136      96.619
    10    871.10   -3324.24785   -3322.33376     900.136      95.897
    11   1062.12   -3324.78452   -3322.45069     900.136      95.767
    12   1415.61   -3325.73892   -3322.62834     900.136      96.528
    13   1734.87   -3326.89479   -3323.08271     900.136      99.216
    14    706.49   -3323.93379   -3322.38139     900.136     108.666
    15   1898.93   -3326.47869   -3322.30610     900.136      97.490
    16   1332.55   -3325.30758   -3322.37953     900.136     100.311
    17    891.91   -3324.59497   -3322.63516     900.136     101.005
    18    645.31   -3323.99875   -3322.58078     900.136     101.764
    19    991.61   -3325.00877   -3322.82988     900.136      97.872
    20   1375.93   -3326.04765   -3323.02426     900.136      94.315
    21   1504.04   -3326.51817   -3323.21329     900.136      92.833
    22   1502.06   -3326.78074   -3323.48021     900.136      93.203
    23   1126.22   -3326.27539   -3323.80072     900.136      96.854
    24    341.70   -3324.29256   -3323.54174     900.136     101.732
    25    693.62   -3325.36464   -3323.84053     900.136      96.997
    26   1425.89   -3327.18315   -3324.04998     900.136      91.263
    27   1504.72   -3327.46364   -3324.15728     900.136      90.194
    28   1390.64   -3327.40204   -3324.34635     900.136      89.774
    29   1251.33   -3327.31349   -3324.56390     900.136      90.669
    30    970.98   -3326.86847   -3324.73491     900.136      92.898
    31    610.80   -3326.07142   -3324.72929     900.136      94.671
    32    621.27   -3326.18559   -3324.82044     900.136      92.785
    33    851.32   -3326.83671   -3324.96608     900.136      89.103
    34    884.63   -3326.98289   -3325.03905     900.136      86.717
    35    795.32   -3326.85966   -3325.11207     900.136      84.919
    36    740.02   -3326.81316   -3325.18708     900.136      83.343
    37    788.33   -3326.99869   -3325.26646     900.136      82.230
    38    957.31   -3327.47327   -3325.36975     900.136      81.496
    39   1235.92   -3328.23940   -3325.52367     900.136      81.245
    40   1545.00   -3329.15439   -3325.75952     900.136      82.305
    41   1632.54   -3329.66770   -3326.08045     900.136      85.816
    42   1209.21   -3328.89032   -3326.23330     900.136      91.715
    43    838.48   -3328.07625   -3326.23382     900.136      94.048
    44   1004.34   -3328.69169   -3326.48482     900.136      89.622
    45   1132.39   -3329.12139   -3326.63315     900.136      84.696
    46   1013.38   -3328.98569   -3326.75896     900.136      80.863
    47    743.07   -3328.47122   -3326.83843     900.136      78.166
    48    475.78   -3327.92493   -3326.87949     900.136      76.130
    49    301.08   -3327.55304   -3326.89147     900.136      74.886
    50    243.26   -3327.41999   -3326.88546     900.136      74.073
    51    300.78   -3327.54178   -3326.88086     900.136      73.519
    52    460.44   -3327.91153   -3326.89980     900.136      73.550
    53    683.87   -3328.46350   -3326.96081     900.136      74.473
    54    877.92   -3329.01191   -3327.08284     900.136      76.746
    55    874.18   -3329.15191   -3327.23104     900.136      80.565
    56    571.95   -3328.53149   -3327.27472     900.136      85.289
    57    362.45   -3327.98430   -3327.18787     900.136      86.827
    58    680.86   -3328.85745   -3327.36137     900.136      82.657
    59    953.29   -3329.58912   -3327.49441     900.136      78.059
    60    831.06   -3329.37581   -3327.54970     900.136      75.528
    61    561.43   -3328.82498   -3327.59134     900.136      73.526
    62    347.24   -3328.37294   -3327.60993     900.136      72.276
    63    253.91   -3328.16614   -3327.60822     900.136      71.572
    64    283.53   -3328.22865   -3327.60564     900.136      71.398
    65    404.18   -3328.51046   -3327.62235     900.136      71.870
    66    547.24   -3328.87342   -3327.67094     900.136      73.248
    67    636.26   -3329.12878   -3327.73071     900.136      75.437
    68    674.09   -3329.27134   -3327.79014     900.136      77.789
    69    669.63   -3329.37426   -3327.90286     900.136      79.677
    70    499.04   -3329.02499   -3327.92843     900.136      81.240
    71    399.88   -3328.77223   -3327.89356     900.136      80.343
    72    565.08   -3329.25559   -3328.01393     900.136      76.259
    73    609.86   -3329.39225   -3328.05217     900.136      73.360
    74    483.91   -3329.12780   -3328.06449     900.136      71.744
    75    358.03   -3328.86248   -3328.07576     900.136      70.806
    76    312.20   -3328.76820   -3328.08220     900.136      70.349
    77    338.29   -3328.83871   -3328.09538     900.136      70.553
    78    381.55   -3328.95460   -3328.11621     900.136      71.725
    79    397.68   -3329.00082   -3328.12699     900.136      73.390
    80    441.19   -3329.10204   -3328.13260     900.136      75.049
    81    564.80   -3329.44605   -3328.20500     900.136      75.776
    82    587.19   -3329.58132   -3328.29107     900.136      76.516
    83    404.73   -3329.15715   -3328.26783     900.136      77.363
    84    332.08   -3328.99053   -3328.26084     900.136      75.825
    85    447.87   -3329.32002   -3328.33590     900.136      72.628
    86    468.75   -3329.38520   -3328.35520     900.136      70.391
    87    383.32   -3329.19953   -3328.35724     900.136      69.060
    88    308.68   -3329.03601   -3328.35774     900.136      68.360
    89    286.15   -3328.99088   -3328.36210     900.136      68.426
    90    287.69   -3328.99927   -3328.36712     900.136      69.340
    91    280.49   -3328.97337   -3328.35705     900.136      70.755
    92    316.23   -3329.03405   -3328.33917     900.136      71.836
    93    458.57   -3329.38700   -3328.37937     900.136      72.235
    94    563.00   -3329.69607   -3328.45898     900.136      72.476
    95    444.28   -3329.46040   -3328.48416     900.136      73.664
    96    245.49   -3328.96638   -3328.42695     900.136      74.172
    97    266.84   -3329.03584   -3328.44950     900.136      72.203
    98    386.69   -3329.33440   -3328.48471     900.136      69.649
    99    397.65   -3329.35748   -3328.48370     900.136      68.300
   100    345.10   -3329.24370   -3328.48539     900.136      67.797
